Time [s], Acceleration [mg]
0,205.314
0.001,202.107
0.002,198.46
0.003,195.396
0.004,191.796
0.005,188.243
0.006,184.56
0.007,180.59
0.008,176.704
0.009,172.317
0.01,168.371
0.011,163.722
0.012,159.133
0.013,154.007
0.014,149.429
0.015,144.196
0.016,138.271
0.017,133.216
0.018,127.184
0.019,121.689
0.02,115.764
0.021,109.792
0.022,103.354
0.023,96.5476
0.024,90.4799
0.025,83.8518
0.026,77.8675
0.027,71.4541
0.028,65.2909
0.029,58.5795
0.03,52.2018
0.031,45.9433
0.032,39.2795
0.033,33.2475
0.034,26.8221
0.035,20.1583
0.036,13.8521
0.037,7.67708
0.038,1.46627
0.039,-5.55515
0.04,-12.6004
0.041,-19.7172
0.042,-26.6552
0.043,-33.7124
0.044,-40.7696
0.045,-47.9102
0.046,-54.7052
0.047,-61.6193
0.048,-68.6765
0.049,-75.6383
0.05,-82.3379
0.051,-88.6083
0.052,-94.8548
0.053,-101.28
0.054,-107.479
0.055,-113.487
0.056,-118.887
0.057,-124.443
0.058,-130.308
0.059,-135.648
0.06,-141.108
0.061,-146.425
0.062,-151.968
0.063,-157.082
0.064,-162.423
0.065,-167
0.066,-172.174
0.067,-177.109
0.068,-181.878
0.069,-187.266
0.07,-192.428
0.071,-196.385
0.072,-199.914
0.073,-203.8
0.074,-208.449
0.075,-212.383
0.076,-215.447
0.077,-218.26
0.078,-221.86
0.079,-225.437
0.08,-227.785
0.081,-230.265
0.082,-232.661
0.083,-235.033
0.084,-236.642
0.085,-237.834
0.086,-239.48
0.087,-241.637
0.088,-242.96
0.089,-243.08
0.09,-244.236
0.091,-245.178
0.092,-246.227
0.093,-247.169
0.094,-246.704
0.095,-247.467
0.096,-247.86
0.097,-247.431
0.098,-246.799
0.099,-245.512
0.1,-244.951
0.101,-244.248
0.102,-242.925
0.103,-240.886
0.104,-239.146
0.105,-237.012
0.106,-234.818
0.107,-232.327
0.108,-230.134
0.109,-227.284
0.11,-223.732
0.111,-220.823
0.112,-217.867
0.113,-214.994
0.114,-212.359
0.115,-208.616
0.116,-204.599
0.117,-200.57
0.118,-196.54
0.119,-192.404
0.12,-188.208
0.121,-183.725
0.122,-179.124
0.123,-174.034
0.124,-169.015
0.125,-163.96
0.126,-159.287
0.127,-154.34
0.128,-148.761
0.129,-142.67
0.13,-136.828
0.131,-131.297
0.132,-124.466
0.133,-118.637
0.134,-113.416
0.135,-106.132
0.136,-97.8828
0.137,-92.4826
0.138,-88.1314
0.139,-81.5153
0.14,-73.3256
0.141,-66.5665
0.142,-60.4153
0.143,-54.9316
0.144,-49.603
0.145,-43.571
0.146,-36.3469
0.147,-28.9679
0.148,-22.459
0.149,-15.986
0.15,-9.19104
0.151,-2.30074
0.152,4.45843
0.153,10.8957
0.154,17.488
0.155,24.2233
0.156,32.4011
0.157,39.7921
0.158,45.8717
0.159,51.6415
0.16,57.8523
0.161,65.0883
0.162,71.5017
0.163,77.5218
0.164,83.3154
0.165,88.954
0.166,94.4853
0.167,100.768
0.168,106.442
0.169,111.389
0.17,117.242
0.171,122.118
0.172,127.375
0.173,132.918
0.174,138.593
0.175,144.029
0.176,148.821
0.177,153.625
0.178,158.513
0.179,163.031
0.18,167.859
0.181,172.83
0.182,176.394
0.183,180.03
0.184,184.143
0.185,188.315
0.186,192.201
0.187,195.611
0.188,198.281
0.189,201.309
0.19,204.372
0.191,206.625
0.192,208.902
0.193,211.31
0.194,213.468
0.195,215.185
0.196,216.568
0.197,217.819
0.198,218.38
0.199,219.667
0.2,221.241
0.201,222.528
0.202,222.755
0.203,223.112
0.204,223.172
0.205,223.362
0.206,223.804
0.207,223.41
0.208,223.327
0.209,222.337
0.21,221.443
0.211,220.096
0.212,218.523
0.213,217.187
0.214,214.815
0.215,212.944
0.216,210.154
0.217,207.865
0.218,205.624
0.219,202.847
0.22,199.58
0.221,196.898
0.222,193.644
0.223,190.234
0.224,187.242
0.225,183.928
0.226,180.769
0.227,176.644
0.228,172.305
0.229,168.586
0.23,164.032
0.231,159.49
0.232,155.211
0.233,150.549
0.234,145.268
0.235,139.999
0.236,134.325
0.237,129.139
0.238,123.751
0.239,118.256
0.24,112.14
0.241,106.347
0.242,99.6232
0.243,93.8416
0.244,87.4877
0.245,81.1935
0.246,75.3164
0.247,69.0699
0.248,62.9306
0.249,56.3979
0.25,50.3659
0.251,43.869
0.252,37.7297
0.253,31.1017
0.254,24.1756
0.255,17.9768
0.256,11.2534
0.257,4.54187
0.258,-1.87159
0.259,-8.4281
0.26,-15.7118
0.261,-22.9836
0.262,-29.4209
0.263,-36.0966
0.264,-43.3445
0.265,-49.8295
0.266,-56.9582
0.267,-63.479
0.268,-69.9997
0.269,-76.6993
0.27,-83.2081
0.271,-89.4904
0.272,-95.9158
0.273,-101.65
0.274,-108.039
0.275,-114.346
0.276,-119.686
0.277,-125.039
0.278,-130.892
0.279,-136.173
0.28,-141.907
0.281,-147.629
0.282,-152.731
0.283,-158.167
0.284,-163.293
0.285,-168.24
0.286,-173.318
0.287,-178.432
0.288,-183.439
0.289,-187.933
0.29,-192.404
0.291,-196.052
0.292,-200.439
0.293,-204.825
0.294,-208.7
0.295,-212.121
0.296,-215.077
0.297,-217.927
0.298,-221.479
0.299,-224.364
0.3,-226.843
0.301,-229.12
0.302,-231.385
0.303,-233.4
0.304,-235.498
0.305,-237.358
0.306,-238.49
0.307,-239.825
0.308,-240.624
0.309,-241.792
0.31,-242.686
0.311,-243.318
0.312,-244.057
0.313,-244.26
0.314,-244.427
0.315,-244.427
0.316,-244.141
0.317,-244.224
0.318,-243.664
0.319,-243.151
0.32,-242.019
0.321,-240.409
0.322,-238.788
0.323,-237.501
0.324,-235.26
0.325,-232.995
0.326,-231.075
0.327,-229.12
0.328,-226.259
0.329,-223.1
0.33,-219.905
0.331,-217.056
0.332,-213.85
0.333,-210.285
0.334,-207.019
0.335,-202.704
0.336,-198.817
0.337,-195.217
0.338,-190.938
0.339,-186.849
0.34,-182.092
0.341,-177.336
0.342,-173.187
0.343,-168.908
0.344,-164.354
0.345,-158.978
0.346,-153.554
0.347,-148.368
0.348,-142.908
0.349,-136.781
0.35,-130.82
0.351,-125.194
0.352,-119.042
0.353,-112.855
0.354,-106.466
0.355,-100.41
0.356,-94.1515
0.357,-87.8811
0.358,-81.718
0.359,-75.1615
0.36,-69.4633
0.361,-62.9306
0.362,-56.5052
0.363,-50.354
0.364,-44.0955
0.365,-37.7178
0.366,-30.8275
0.367,-24.3545
0.368,-17.5595
0.369,-10.6215
0.37,-3.6478
0.371,2.82526
0.372,9.46522
0.373,15.6879
0.374,22.4471
0.375,29.3255
0.376,35.7747
0.377,41.9498
0.378,48.7566
0.379,55.0747
0.38,61.6312
0.381,68.4261
0.382,74.7085
0.383,80.7881
0.384,86.7129
0.385,92.2918
0.386,98.0735
0.387,104.153
0.388,109.78
0.389,115.156
0.39,120.223
0.391,125.527
0.392,130.558
0.393,135.279
0.394,140.5
0.395,145.602
0.396,150.371
0.397,154.483
0.398,159.216
0.399,163.889
0.4,168.836
0.401,172.651
0.402,176.573
0.403,180.817
0.404,184.298
0.405,187.957
0.406,191.307
0.407,194.776
0.408,197.816
0.409,200.2
0.41,201.702
0.411,203.598
0.412,206.208
0.413,208.08
0.414,209.177
0.415,210.416
0.416,211.31
0.417,212.812
0.418,214.279
0.419,215.554
0.42,216.854
0.421,218.093
0.422,218.88
0.423,218.666
0.424,218.952
0.425,219.679
0.426,219.691
0.427,219.131
0.428,218.272
0.429,217.307
0.43,215.888
0.431,214.35
0.432,212.562
0.433,211.12
0.434,208.879
0.435,206.28
0.436,203.562
0.437,201.178
0.438,198.829
0.439,196.505
0.44,193.203
0.441,190.115
0.442,186.861
0.443,183.654
0.444,180.03
0.445,176.096
0.446,172.234
0.447,168.335
0.448,164.163
0.449,160.074
0.45,155.449
0.451,151.575
0.452,146.627
0.453,141.907
0.454,136.864
0.455,131.822
0.456,126.731
0.457,121.26
0.458,115.693
0.459,110.483
0.46,104.821
0.461,98.4192
0.462,92.6137
0.463,86.5817
0.464,80.9789
0.465,75.1734
0.466,68.9387
0.467,62.7279
0.468,56.8748
0.469,50.962
0.47,44.6916
0.471,38.4688
0.472,32.5084
0.473,26.2857
0.474,20.1225
0.475,13.7806
0.476,7.49827
0.477,0.64373
0.478,-5.9247
0.479,-12.4097
0.48,-19.3834
0.481,-26.1426
0.482,-33.0567
0.483,-39.5656
0.484,-46.0029
0.485,-52.8693
0.486,-59.6643
0.487,-66.6618
0.488,-72.5508
0.489,-78.9762
0.49,-84.6386
0.491,-90.2295
0.492,-96.941
0.493,-102.687
0.494,-108.182
0.495,-114.155
0.496,-120.151
0.497,-126.183
0.498,-130.773
0.499,-136.316
0.5,-141.728
0.501,-147.045
0.502,-152.087
0.503,-156.903
0.504,-161.696
0.505,-166.19
0.506,-171.399
0.507,-175.953
0.508,-180.364
0.509,-184.667
0.51,-189.173
0.511,-193.226
0.512,-196.672
0.513,-200.594
0.514,-204.802
0.515,-208.247
0.516,-211.322
0.517,-213.79
0.518,-217.497
0.519,-219.584
0.52,-221.61
0.521,-224.221
0.522,-226.367
0.523,-228.155
0.524,-230.372
0.525,-231.576
0.526,-233.078
0.527,-234.234
0.528,-235.736
0.529,-236.726
0.53,-237.834
0.531,-238.502
0.532,-238.931
0.533,-239.205
0.534,-239.682
0.535,-239.599
0.536,-239.027
0.537,-238.359
0.538,-238.168
0.539,-236.583
0.54,-235.784
0.541,-234.592
0.542,-232.84
0.543,-231.004
0.544,-228.87
0.545,-227.261
0.546,-225.127
0.547,-222.254
0.548,-220.084
0.549,-217.462
0.55,-213.861
0.551,-210.536
0.552,-207.937
0.553,-205.159
0.554,-201.309
0.555,-197.411
0.556,-194.001
0.557,-190.067
0.558,-185.955
0.559,-181.425
0.56,-177.157
0.561,-173.676
0.562,-169.587
0.563,-164.509
0.564,-158.846
0.565,-153.494
0.566,-149.095
0.567,-144.076
0.568,-138.497
0.569,-132.62
0.57,-126.457
0.571,-121.248
0.572,-115.18
0.573,-108.91
0.574,-102.687
0.575,-96.8456
0.576,-90.6348
0.577,-84.4956
0.578,-78.6185
0.579,-72.6819
0.58,-66.1731
0.581,-59.9146
0.582,-53.6919
0.583,-47.7076
0.584,-41.5683
0.585,-35.1071
0.586,-28.6818
0.587,-22.161
0.588,-16.0337
0.589,-8.67844
0.59,-2.06232
0.591,4.27961
0.592,10.4547
0.593,17.5238
0.594,24.5452
0.595,30.8633
0.596,37.0264
0.597,43.2015
0.598,49.3169
0.599,56.0761
0.6,61.9173
0.601,68.2592
0.602,74.6727
0.603,80.502
0.604,85.8545
0.605,91.517
0.606,97.251
0.607,102.568
0.608,107.849
0.609,113.44
0.61,118.828
0.611,124.3
0.612,129.02
0.613,133.503
0.614,138.795
0.615,143.552
0.616,148.678
0.617,152.814
0.618,157.475
0.619,162.065
0.62,166.833
0.621,170.827
0.622,174.439
0.623,178.671
0.624,182.021
0.625,185.287
0.626,188.255
0.627,191.748
0.628,194.275
0.629,196.457
0.63,199.008
0.631,200.987
0.632,203.264
0.633,205.088
0.634,206.578
0.635,207.961
0.636,209.618
0.637,211.203
0.638,212.574
0.639,213.921
0.64,214.696
0.641,215.685
0.642,216.246
0.643,216.579
0.644,216.401
0.645,216.103
0.646,215.113
0.647,214.672
0.648,213.635
0.649,212.538
0.65,211.167
0.651,209.689
0.652,208.032
0.653,206.435
0.654,204.456
0.655,202.251
0.656,199.974
0.657,197.721
0.658,195.217
0.659,192.332
0.66,189.4
0.661,186.372
0.662,182.939
0.663,179.207
0.664,175.846
0.665,172.055
0.666,168.407
0.667,165.069
0.668,160.766
0.669,156.581
0.67,152.946
0.671,148.118
0.672,143.29
0.673,138.593
0.674,133.55
0.675,128.77
0.676,123.632
0.677,118.136
0.678,112.641
0.679,106.609
0.68,100.529
0.681,94.4376
0.682,88.7394
0.683,83.1843
0.684,77.1523
0.685,71.0607
0.686,65.1598
0.687,59.1397
0.688,53.1674
0.689,47.04
0.69,41.008
0.691,35.4409
0.692,28.9083
0.693,22.8524
0.694,16.5701
0.695,10.4308
0.696,3.12328
0.697,-3.42131
0.698,-9.69172
0.699,-16.5701
0.7,-23.3293
0.701,-29.7666
0.702,-36.9549
0.703,-43.2015
0.704,-49.4599
0.705,-55.8734
0.706,-62.6206
0.707,-68.6765
0.708,-74.9111
0.709,-80.7166
0.71,-86.5579
0.711,-92.7568
0.712,-98.5146
0.713,-104.511
0.714,-110.209
0.715,-115.538
0.716,-121.629
0.717,-127.029
0.718,-132.346
0.719,-137.699
0.72,-143.325
0.721,-147.939
0.722,-153.041
0.723,-158.203
0.724,-163.078
0.725,-167.489
0.726,-171.745
0.727,-176.096
0.728,-179.887
0.729,-184.882
0.73,-188.768
0.731,-192.75
0.732,-196.648
0.733,-200.403
0.734,-203.86
0.735,-207.365
0.736,-210.249
0.737,-213.122
0.738,-215.757
0.739,-218.248
0.74,-220.537
0.741,-222.611
0.742,-224.447
0.743,-226.283
0.744,-227.571
0.745,-229.061
0.746,-230.539
0.747,-231.54
0.748,-232.577
0.749,-233.448
0.75,-234.628
0.751,-235.009
0.752,-235.605
0.753,-235.987
0.754,-235.951
0.755,-235.808
0.756,-235.295
0.757,-234.628
0.758,-233.364
0.759,-231.814
0.76,-230.92
0.761,-229.371
0.762,-227.904
0.763,-226.092
0.764,-224.066
0.765,-221.515
0.766,-219.357
0.767,-217.223
0.768,-214.136
0.769,-211.537
0.77,-208.7
0.771,-205.612
0.772,-202.107
0.773,-198.817
0.774,-195.265
0.775,-191.951
0.776,-187.635
0.777,-183.916
0.778,-179.565
0.779,-175.715
0.78,-170.708
0.781,-166.237
0.782,-162.041
0.783,-157.547
0.784,-152.504
0.785,-147.08
0.786,-142.133
0.787,-137.21
0.788,-131.845
0.789,-126.004
0.79,-120.318
0.791,-114.906
0.792,-108.802
0.793,-102.961
0.794,-96.8218
0.795,-91.0282
0.796,-85.0916
0.797,-78.9285
0.798,-72.5985
0.799,-66.6976
0.8,-60.6656
0.801,-54.6098
0.802,-48.1963
0.803,-42.3908
0.804,-36.0251
0.805,-29.8619
0.806,-23.7942
0.807,-16.9992
0.808,-10.6096
0.809,-4.23193
0.81,1.93119
0.811,8.7738
0.812,15.2588
0.813,21.2789
0.814,27.9069
0.815,33.8793
0.816,40.2927
0.817,46.1102
0.818,52.3329
0.819,58.2695
0.82,64.3253
0.821,70.0116
0.822,75.9602
0.823,81.718
0.824,87.0466
0.825,92.7925
0.826,98.7887
0.827,104.022
0.828,108.862
0.829,114.214
0.83,119.364
0.831,124.371
0.832,128.949
0.833,133.765
0.834,138.462
0.835,143.635
0.836,148.296
0.837,152.361
0.838,156.498
0.839,160.79
0.84,164.759
0.841,168.335
0.842,171.971
0.843,175.548
0.844,178.683
0.845,182.056
0.846,185.299
0.847,187.707
0.848,190.401
0.849,192.595
0.85,194.836
0.851,196.803
0.852,199.008
0.853,200.713
0.854,202.572
0.855,204.206
0.856,204.992
0.857,206.089
0.858,206.959
0.859,208.008
0.86,208.616
0.861,208.962
0.862,208.962
0.863,209.057
0.864,209.451
0.865,209.725
0.866,209.332
0.867,208.461
0.868,207.925
0.869,207.007
0.87,205.553
0.871,203.872
0.872,202.31
0.873,200.331
0.874,198.174
0.875,195.682
0.876,193.357
0.877,190.735
0.878,188.327
0.879,185.776
0.88,183.01
0.881,180.209
0.882,176.537
0.883,173.02
0.884,169.718
0.885,166.321
0.886,162.447
0.887,158.62
0.888,154.412
0.889,149.894
0.89,145.578
0.891,140.965
0.892,136.471
0.893,131.655
0.894,126.684
0.895,121.915
0.896,116.587
0.897,111.818
0.898,106.418
0.899,100.923
0.9,95.3794
0.901,90.0388
0.902,84.4598
0.903,78.4755
0.904,72.8011
0.905,66.9241
0.906,60.9875
0.907,55.2416
0.908,48.9473
0.909,43.3207
0.91,37.2052
0.911,31.5189
0.912,25.475
0.913,19.2404
0.914,12.6839
0.915,6.42538
0.916,0.0596047
0.917,-5.97239
0.918,-12.4931
0.919,-18.8828
0.92,-25.4273
0.921,-31.9004
0.922,-38.3735
0.923,-45.1922
0.924,-51.0693
0.925,-57.4112
0.926,-63.5505
0.927,-69.4275
0.928,-75.5549
0.929,-80.7643
0.93,-86.6771
0.931,-92.6733
0.932,-98.7291
0.933,-104.01
0.934,-109.553
0.935,-115.073
0.936,-121.14
0.937,-126.553
0.938,-131.953
0.939,-137.496
0.94,-142.67
0.941,-147.414
0.942,-152.028
0.943,-156.724
0.944,-161.672
0.945,-165.808
0.946,-170.028
0.947,-174.212
0.948,-178.146
0.949,-182.39
0.95,-186.372
0.951,-190.151
0.952,-193.691
0.953,-197.172
0.954,-200.498
0.955,-203.514
0.956,-206.757
0.957,-209.856
0.958,-212.014
0.959,-214.636
0.96,-216.627
0.961,-218.511
0.962,-220.287
0.963,-222.111
0.964,-223.231
0.965,-225.055
0.966,-226.045
0.967,-227.225
0.968,-227.964
0.969,-229.538
0.97,-230.241
0.971,-230.527
0.972,-231.004
0.973,-231.35
0.974,-231.552
0.975,-231.099
0.976,-230.956
0.977,-229.609
0.978,-228.643
0.979,-227.487
0.98,-225.83
0.981,-224.304
0.982,-222.802
0.983,-220.788
0.984,-218.88
0.985,-216.949
0.986,-214.267
0.987,-211.966
0.988,-210.047
0.989,-207.21
0.99,-204.11
0.991,-201.273
0.992,-197.852
0.993,-194.669
0.994,-191.104
0.995,-187.278
0.996,-183.368
0.997,-179.088
0.998,-174.868
0.999,-170.517
1,-165.82
1.001,-161.576
1.002,-156.832
1.003,-152.135
1.004,-147.51
1.005,-142.503
1.006,-137.341
1.007,-132.537
1.008,-126.97
1.009,-121.713
1.01,-116.134
1.011,-110.412
1.012,-104.594
1.013,-99.0749
1.014,-93.317
1.015,-87.4162
1.016,-80.9193
1.017,-74.9946
1.018,-68.9983
1.019,-63.0379
1.02,-56.8867
1.021,-50.9739
1.022,-45.3711
1.023,-39.506
1.024,-33.2594
1.025,-26.5837
1.026,-20.5636
1.027,-13.9356
1.028,-7.689
1.029,-1.2517
1.03,5.34058
1.031,12.0044
1.032,18.5013
1.033,24.4141
1.034,30.7322
1.035,36.8953
1.036,42.7723
1.037,48.5182
1.038,54.574
1.039,60.5226
1.04,66.1731
1.041,71.9071
1.042,77.7602
1.043,82.922
1.044,88.1791
1.045,93.9012
1.046,99.6947
1.047,104.988
1.048,109.696
1.049,114.596
1.05,119.817
1.051,124.848
1.052,129.402
1.053,133.86
1.054,138.95
1.055,143.516
1.056,147.688
1.057,152.242
1.058,156.391
1.059,160.778
1.06,163.913
1.061,167.763
1.062,171.518
1.063,174.785
1.064,178.063
1.065,181.079
1.066,183.666
1.067,186.205
1.068,188.601
1.069,190.723
1.07,193.31
1.071,194.895
1.072,196.612
1.073,198.448
1.074,199.616
1.075,201.321
1.076,202.179
1.077,203.192
1.078,204.17
1.079,205.183
1.08,205.731
1.081,206.292
1.082,206.554
1.083,206.625
1.084,206.578
1.085,206.161
1.086,205.6
1.087,204.885
1.088,203.621
1.089,202.692
1.09,200.677
1.091,199.378
1.092,197.697
1.093,195.301
1.094,193.048
1.095,191.152
1.096,188.458
1.097,186.3
1.098,183.594
1.099,180.638
1.1,177.717
1.101,174.212
1.102,171.447
1.103,168.312
1.104,164.378
1.105,160.491
1.106,157.058
1.107,153.172
1.108,149.047
1.109,144.351
1.11,140.357
1.111,135.505
1.112,130.582
1.113,125.694
1.114,120.676
1.115,115.776
1.116,110.602
1.117,105.107
1.118,100.267
1.119,95.1052
1.12,89.2997
1.121,83.7445
1.122,78.4993
1.123,72.6819
1.124,66.9003
1.125,61.4762
1.126,56.0284
1.127,50.056
1.128,43.9167
1.129,38.3139
1.13,32.115
1.131,26.381
1.132,20.1106
1.133,13.4468
1.134,7.4625
1.135,1.35899
1.136,-4.673
1.137,-10.6812
1.138,-17.1542
1.139,-23.3531
1.14,-29.8142
1.141,-36.3827
1.142,-42.4147
1.143,-48.3751
1.144,-54.3475
1.145,-60.904
1.146,-66.5307
1.147,-72.7177
1.148,-78.4993
1.149,-84.1498
1.15,-89.8123
1.151,-95.8085
1.152,-101.34
1.153,-107.396
1.154,-112.462
1.155,-117.719
1.156,-123.62
1.157,-128.388
1.158,-133.276
1.159,-138.271
1.16,-143.492
1.161,-147.629
1.162,-152.433
1.163,-157.309
1.164,-161.445
1.165,-166.047
1.166,-169.814
1.167,-174.367
1.168,-178.134
1.169,-182.211
1.17,-185.728
1.171,-189.233
1.172,-192.618
1.173,-196.171
1.174,-198.936
1.175,-201.738
1.176,-204.229
1.177,-206.625
1.178,-208.569
1.179,-210.679
1.18,-212.777
1.181,-215.244
1.182,-217.176
1.183,-218.749
1.184,-220.013
1.185,-221.312
1.186,-223.148
1.187,-224.197
1.188,-224.721
1.189,-225.151
1.19,-226.259
1.191,-226.39
1.192,-225.985
1.193,-226.128
1.194,-225.711
1.195,-225.854
1.196,-224.853
1.197,-223.911
1.198,-222.862
1.199,-221.634
1.2,-220.442
1.201,-218.523
1.202,-216.806
1.203,-214.779
1.204,-212.777
1.205,-210.786
1.206,-208.33
1.207,-205.958
1.208,-203.502
1.209,-200.355
1.21,-197.709
1.211,-195.026
1.212,-191.379
1.213,-188.327
1.214,-184.655
1.215,-181.329
1.216,-177.646
1.217,-173.366
1.218,-169.194
1.219,-165.01
1.22,-160.623
1.221,-156.021
1.222,-151.646
1.223,-146.914
1.224,-141.978
1.225,-136.471
1.226,-131.941
1.227,-126.91
1.228,-121.439
1.229,-115.752
1.23,-110.447
1.231,-105.286
1.232,-99.0749
1.233,-93.4839
1.234,-88.203
1.235,-82.624
1.236,-76.1747
1.237,-70.262
1.238,-64.4207
1.239,-59.0324
1.24,-53.072
1.241,-47.4453
1.242,-41.5087
1.243,-34.9164
1.244,-29.3136
1.245,-23.3889
1.246,-17.1661
1.247,-11.5514
1.248,-5.00679
1.249,1.07288
1.25,7.236
1.251,13.1249
1.252,19.3596
1.253,25.6181
1.254,31.7931
1.255,37.5271
1.256,43.3922
1.257,49.4957
1.258,55.5873
1.259,61.2378
1.26,66.6976
1.261,72.8011
1.262,77.9748
1.263,82.922
1.264,88.4175
1.265,94.0561
1.266,99.1464
1.267,103.939
1.268,108.659
1.269,113.869
1.27,118.685
1.271,123.298
1.272,128.138
1.273,132.549
1.274,136.817
1.275,141.025
1.276,145.531
1.277,149.643
1.278,153.828
1.279,158
1.28,161.743
1.281,165.045
1.282,168.18
1.283,171.542
1.284,174.558
1.285,177.431
1.286,179.97
1.287,182.498
1.288,184.953
1.289,187.159
1.29,189.352
1.291,191.677
1.292,193.036
1.293,194.478
1.294,195.587
1.295,197.005
1.296,198.436
1.297,199.437
1.298,200.009
1.299,200.546
1.3,200.975
1.301,200.808
1.302,201.13
1.303,201.178
1.304,200.796
1.305,200.093
1.306,199.604
1.307,199.044
1.308,197.983
1.309,196.314
1.31,195.122
1.311,193.81
1.312,191.76
1.313,190.032
1.314,187.552
1.315,185.49
1.316,183.07
1.317,180.721
1.318,177.753
1.319,174.844
1.32,172.126
1.321,169.337
1.322,166.261
1.323,163.102
1.324,159.347
1.325,155.711
1.326,151.777
1.327,147.808
1.328,143.349
1.329,139.475
1.33,135.207
1.331,130.796
1.332,126.076
1.333,121.391
1.334,116.813
1.335,111.651
1.336,106.74
1.337,101.197
1.338,95.9516
1.339,90.9567
1.34,85.4373
1.341,80.4067
1.342,74.482
1.343,69.1056
1.344,63.3478
1.345,57.2324
1.346,51.9991
1.347,46.3128
1.348,40.5431
1.349,34.8687
1.35,29.1824
1.351,22.9001
1.352,16.6893
1.353,10.8123
1.354,4.43459
1.355,-1.56164
1.356,-7.33137
1.357,-13.2918
1.358,-19.6338
1.359,-25.8446
1.36,-32.2938
1.361,-38.1708
1.362,-44.7512
1.363,-50.6401
1.364,-56.3383
1.365,-62.2869
1.366,-68.14
1.367,-74.2197
1.368,-79.5722
1.369,-85.6161
1.37,-91.0759
1.371,-96.5953
1.372,-102.341
1.373,-107.718
1.374,-112.653
1.375,-118.423
1.376,-123.799
1.377,-128.436
1.378,-132.799
1.379,-137.866
1.38,-142.717
1.381,-147.438
1.382,-151.587
1.383,-156.069
1.384,-160.17
1.385,-164.664
1.386,-168.943
1.387,-173.438
1.388,-177.467
1.389,-181.079
1.39,-184.453
1.391,-187.874
1.392,-191.653
1.393,-194.669
1.394,-197.232
1.395,-199.842
1.396,-202.203
1.397,-204.492
1.398,-207.019
1.399,-209.034
1.4,-210.822
1.401,-212.824
1.402,-214.636
1.403,-215.971
1.404,-217.354
1.405,-218.892
1.406,-220.001
1.407,-220.919
1.408,-221.181
1.409,-222.278
1.41,-222.611
1.411,-222.778
1.412,-222.838
1.413,-223.017
1.414,-222.54
1.415,-221.872
1.416,-220.621
1.417,-219.917
1.418,-218.856
1.419,-217.998
1.42,-216.436
1.421,-214.66
1.422,-212.896
1.423,-211.167
1.424,-209.391
1.425,-206.816
1.426,-204.492
1.427,-201.976
1.428,-199.33
1.429,-195.992
1.43,-193.191
1.431,-189.96
1.432,-186.718
1.433,-182.843
1.434,-179.374
1.435,-175.548
1.436,-171.84
1.437,-167.739
1.438,-163.627
1.439,-159.538
1.44,-155.973
1.441,-150.871
1.442,-146.52
1.443,-141.954
1.444,-137.246
1.445,-131.857
1.446,-127.029
1.447,-121.713
1.448,-116.456
1.449,-111.198
1.45,-105.298
1.451,-99.8378
1.452,-94.2707
1.453,-88.8705
1.454,-82.767
1.455,-77.1523
1.456,-71.3468
1.457,-66.3996
1.458,-61.0948
1.459,-55.3012
1.46,-49.4361
1.461,-43.2611
1.462,-37.9682
1.463,-31.8408
1.464,-25.9161
1.465,-19.8603
1.466,-13.6375
1.467,-7.09295
1.468,-0.977516
1.469,5.53131
1.47,11.456
1.471,17.4642
1.472,23.2697
1.473,28.8725
1.474,34.5707
1.475,40.3643
1.476,45.7287
1.477,51.3196
1.478,57.4112
1.479,63.0498
1.48,68.9268
1.481,74.5535
1.482,80.3948
1.483,85.8903
1.484,90.8017
1.485,96.035
1.486,101.256
1.487,105.965
1.488,110.805
1.489,115.49
1.49,119.686
1.491,124.276
1.492,128.269
1.493,132.716
1.494,136.9
1.495,141.132
1.496,144.708
1.497,149.286
1.498,153.255
1.499,156.999
1.5,160.873
1.501,164.342
1.502,167.406
1.503,170.326
1.504,173.152
1.505,175.965
1.506,178.313
1.507,180.852
1.508,182.688
1.509,184.989
1.51,186.563
1.511,187.767
1.512,189.757
1.513,190.806
1.514,192.177
1.515,193.31
1.516,194.657
1.517,195.551
1.518,196.159
1.519,196.755
1.52,197.125
1.521,197.423
1.522,197.47
1.523,197.387
1.524,196.719
1.525,196.064
1.526,194.931
1.527,194.252
1.528,192.952
1.529,191.963
1.53,189.698
1.531,188.077
1.532,186.431
1.533,184.202
1.534,182.056
1.535,179.708
1.536,177.145
1.537,174.546
1.538,172.055
1.539,169.23
1.54,166.285
1.541,163.341
1.542,159.884
1.543,156.283
1.544,152.862
1.545,148.821
1.546,144.696
1.547,141.037
1.548,137.103
1.549,133.133
1.55,129.187
1.551,124.705
1.552,120.282
1.553,116.205
1.554,110.805
1.555,105.679
1.556,101.018
1.557,95.6893
1.558,90.1461
1.559,84.9962
1.56,79.5841
1.561,74.0647
1.562,68.7361
1.563,62.9306
1.564,57.4708
1.565,51.9633
1.566,46.3128
1.567,40.4239
1.568,35.3575
1.569,29.3732
1.57,23.9015
1.571,18.2152
1.572,12.5289
1.573,6.62804
1.574,0.226498
1.575,-5.79357
1.576,-11.456
1.577,-17.6668
1.578,-23.675
1.579,-29.8381
1.58,-35.5601
1.581,-41.2464
1.582,-47.8506
1.583,-53.5965
1.584,-59.5212
1.585,-65.4697
1.586,-70.5838
1.587,-76.282
1.588,-81.8491
1.589,-87.1539
1.59,-92.7687
1.591,-97.6324
1.592,-103.021
1.593,-108.075
1.594,-113.69
1.595,-119.078
1.596,-123.99
1.597,-128.722
1.598,-133.491
1.599,-138.426
1.6,-142.992
1.601,-147.235
1.602,-151.92
1.603,-155.926
1.604,-159.645
1.605,-163.174
1.606,-167.513
1.607,-171.399
1.608,-175.512
1.609,-178.48
1.61,-181.89
1.611,-185.406
1.612,-189.447
1.613,-191.486
1.614,-194.442
1.615,-197.244
1.616,-200.069
1.617,-202.262
1.618,-203.967
1.619,-205.469
1.62,-207.508
1.621,-208.604
1.622,-210.488
1.623,-211.632
1.624,-213.194
1.625,-214.326
1.626,-215.113
1.627,-215.673
1.628,-216.52
1.629,-217.032
1.63,-216.937
1.631,-216.949
1.632,-216.925
1.633,-217.187
1.634,-216.758
1.635,-215.626
1.636,-214.934
1.637,-213.432
1.638,-212.967
1.639,-211.287
1.64,-209.796
1.641,-208.33
1.642,-206.316
1.643,-204.384
1.644,-202.501
1.645,-200.355
1.646,-197.959
1.647,-195.301
1.648,-192.237
1.649,-189.471
1.65,-186.729
1.651,-183.082
1.652,-179.851
1.653,-176.895
1.654,-173.521
1.655,-169.837
1.656,-166.38
1.657,-162.244
1.658,-157.952
1.659,-154.09
1.66,-150.251
1.661,-145.948
1.662,-141.215
1.663,-136.364
1.664,-131.464
1.665,-126.684
1.666,-121.76
1.667,-116.956
1.668,-111.163
1.669,-105.917
1.67,-100.446
1.671,-94.5568
1.672,-89.6812
1.673,-84.0187
1.674,-78.9881
1.675,-73.6356
1.676,-67.6274
1.677,-61.7743
1.678,-56.4456
1.679,-50.3421
1.68,-44.4532
1.681,-38.6953
1.682,-32.7349
1.683,-27.1201
1.684,-21.0166
1.685,-14.9965
1.686,-9.47714
1.687,-3.69549
1.688,2.24113
1.689,7.85589
1.69,13.4468
1.691,19.5026
1.692,25.1174
1.693,30.6249
1.694,36.2635
1.695,42.1047
1.696,47.8983
1.697,53.668
1.698,59.557
1.699,64.826
1.7,70.2024
1.701,75.8886
1.702,81.11
1.703,86.2718
1.704,91.207
1.705,95.7728
1.706,100.97
1.707,105.619
1.708,110.078
1.709,115.156
1.71,119.615
1.711,123.835
1.712,127.816
1.713,132.239
1.714,137.007
1.715,141.311
1.716,145.125
1.717,149.071
1.718,152.528
1.719,156.093
1.72,159.585
1.721,163.162
1.722,166.309
1.723,168.502
1.724,171.34
1.725,174.129
1.726,176.227
1.727,177.944
1.728,180.173
1.729,182.617
1.73,184.131
1.731,185.478
1.732,187.159
1.733,188.351
1.734,189.316
1.735,190.532
1.736,191.391
1.737,192.058
1.738,192.273
1.739,193.083
1.74,193.214
1.741,193.465
1.742,193.369
1.743,192.559
1.744,192.106
1.745,191.116
1.746,190.353
1.747,189.352
1.748,187.707
1.749,186.598
1.75,185.335
1.751,183.868
1.752,182.235
1.753,180.268
1.754,177.741
1.755,175.309
1.756,173.032
1.757,170.6
1.758,167.68
1.759,164.437
1.76,161.922
1.761,158.799
1.762,155.067
1.763,151.992
1.764,148.261
1.765,144.482
1.766,140.965
1.767,137.198
1.768,133.121
1.769,128.627
1.77,124.49
1.771,120.401
1.772,115.335
1.773,110.447
1.774,106.013
1.775,100.803
1.776,95.8443
1.777,90.8017
1.778,85.187
1.779,79.6914
1.78,74.5535
1.781,69.046
1.782,63.7293
1.783,58.4722
1.784,52.8932
1.785,47.493
1.786,42.212
1.787,36.3708
1.788,31.2448
1.789,26.1307
1.79,19.9914
1.791,14.1621
1.792,8.95262
1.793,3.15905
1.794,-3.0756
1.795,-8.96454
1.796,-14.6747
1.797,-20.957
1.798,-26.679
1.799,-32.258
1.8,-38.6
1.801,-44.2147
1.802,-49.7341
1.803,-55.9568
1.804,-62.0127
1.805,-67.3771
1.806,-73.123
1.807,-78.2371
1.808,-83.518
1.809,-88.6917
1.81,-94.2707
1.811,-99.8736
1.812,-105.155
1.813,-110.126
1.814,-115.526
1.815,-120.902
1.816,-125.051
1.817,-129.914
1.818,-134.575
1.819,-139.022
1.82,-143.468
1.821,-147.557
1.822,-152.218
1.823,-156.152
1.824,-160.146
1.825,-163.841
1.826,-167.358
1.827,-170.97
1.828,-175.035
1.829,-178.456
1.83,-181.878
1.831,-184.536
1.832,-187.779
1.833,-190.568
1.834,-192.869
1.835,-195.289
1.836,-197.554
1.837,-199.473
1.838,-201.452
1.839,-203.359
1.84,-204.968
1.841,-206.578
1.842,-208.08
1.843,-209.32
1.844,-210.071
1.845,-211.453
1.846,-212.24
1.847,-213.325
1.848,-213.683
1.849,-213.766
1.85,-213.635
1.851,-213.671
1.852,-213.385
1.853,-213.242
1.854,-212.741
1.855,-211.561
1.856,-210.81
1.857,-209.522
1.858,-208.831
1.859,-207.412
1.86,-205.779
1.861,-204.313
1.862,-202.31
1.863,-200.057
1.864,-197.983
1.865,-195.718
1.866,-192.75
1.867,-190.401
1.868,-187.767
1.869,-184.381
1.87,-181.627
1.871,-178.194
1.872,-174.809
1.873,-171.065
1.874,-167.489
1.875,-163.877
1.876,-160.313
1.877,-156.105
1.878,-152.075
1.879,-147.712
1.88,-144.064
1.881,-139.594
1.882,-135.1
1.883,-129.986
1.884,-125.277
1.885,-120.223
1.886,-115.538
1.887,-110.209
1.888,-105.464
1.889,-100.517
1.89,-94.8429
1.891,-89.6931
1.892,-84.1141
1.893,-78.857
1.894,-73.2303
1.895,-67.8063
1.896,-62.2034
1.897,-56.7556
1.898,-50.9858
1.899,-45.991
1.9,-40.102
1.901,-34.7376
1.902,-28.8963
1.903,-23.2339
1.904,-17.5118
1.905,-11.456
1.906,-5.87702
1.907,0.0476837
1.908,6.02007
1.909,12.1832
1.91,18.0483
1.911,23.7346
1.912,28.9321
1.913,35.274
1.914,40.3166
1.915,45.7525
1.916,51.2004
1.917,56.6959
1.918,62.108
1.919,67.544
1.92,72.7058
1.921,77.6291
1.922,83.2558
1.923,87.8573
1.924,92.8044
1.925,97.5728
1.926,102.615
1.927,107.312
1.928,111.604
1.929,116.003
1.93,120.378
1.931,124.478
1.932,128.579
1.933,132.442
1.934,136.423
1.935,139.546
1.936,142.932
1.937,146.759
1.938,150.394
1.939,154.591
1.94,157.177
1.941,159.657
1.942,162.828
1.943,165.761
1.944,169.241
1.945,171.471
1.946,173.807
1.947,175.512
1.948,177.479
1.949,179.386
1.95,180.995
1.951,182.319
1.952,183.558
1.953,184.381
1.954,185.454
1.955,186.574
1.956,187.123
1.957,187.91
1.958,188.565
1.959,188.851
1.96,189.137
1.961,188.828
1.962,188.684
1.963,187.874
1.964,187.838
1.965,186.634
1.966,185.537
1.967,184.464
1.968,183.213
1.969,181.925
1.97,180.388
1.971,178.85
1.972,177.121
1.973,174.904
1.974,172.973
1.975,170.481
1.976,168.502
1.977,165.463
1.978,162.804
1.979,159.502
1.98,156.248
1.981,153.375
1.982,149.679
1.983,146.294
1.984,142.884
1.985,138.855
1.986,134.981
1.987,131.249
1.988,127.482
1.989,123.525
1.99,119.579
1.991,115.12
1.992,110.436
1.993,105.786
1.994,101.304
1.995,96.5476
1.996,91.5051
1.997,86.3552
1.998,81.3365
1.999,75.7933
2,70.6911
2.001,65.6009
2.002,60.1173
2.003,55.2535
2.004,49.7937
2.005,44.3101
2.006,38.9934
2.007,33.3786
2.008,27.9307
2.009,22.8286
2.01,17.1065
2.011,11.7302
2.012,5.56707
2.013,-0.0476837
2.014,-6.04391
2.015,-12.3501
2.016,-18.0364
2.017,-23.9372
2.018,-29.8739
2.019,-35.131
2.02,-41.3895
2.021,-47.2307
2.022,-52.8812
2.023,-57.8642
2.024,-63.4193
2.025,-68.8434
2.026,-74.3747
2.027,-79.5007
2.028,-84.7936
2.029,-89.6216
2.03,-94.7833
2.031,-99.957
2.032,-105.321
2.033,-110.495
2.034,-115.716
2.035,-120.902
2.036,-125.027
2.037,-130.165
2.038,-134.85
2.039,-138.998
2.04,-142.872
2.041,-147.259
2.042,-151.157
2.043,-154.793
2.044,-158.727
2.045,-162.041
2.046,-165.856
2.047,-169.742
2.048,-173.056
2.049,-176.251
2.05,-179.219
2.051,-182.879
2.052,-185.788
2.053,-188.518
2.054,-190.997
2.055,-193.667
2.056,-195.229
2.057,-197.482
2.058,-199.127
2.059,-200.784
2.06,-201.75
2.061,-202.835
2.062,-204.551
2.063,-205.719
2.064,-206.757
2.065,-207.722
2.066,-208.807
2.067,-210.249
2.068,-210.238
2.069,-210.369
2.07,-210.309
2.071,-209.904
2.072,-209.594
2.073,-208.7
2.074,-208.199
2.075,-207.472
2.076,-206.089
2.077,-205.04
2.078,-203.562
2.079,-201.798
2.08,-200.629
2.081,-198.913
2.082,-196.803
2.083,-194.526
2.084,-192.964
2.085,-190.818
2.086,-188.339
2.087,-185.502
2.088,-182.664
2.089,-179.529
2.09,-176.621
2.091,-173.271
2.092,-170.064
2.093,-166.69
2.094,-163.09
2.095,-158.846
2.096,-155.318
2.097,-151.432
2.098,-147.355
2.099,-143.17
2.1,-139.165
2.101,-134.814
2.102,-129.902
2.103,-125.432
2.104,-121.415
2.105,-116.336
2.106,-111.043
2.107,-106.299
2.108,-101.268
2.109,-95.9873
2.11,-90.7779
2.111,-85.6161
2.112,-80.4901
2.113,-74.6489
2.114,-69.1652
2.115,-63.9677
2.116,-58.6629
2.117,-53.2508
2.118,-47.9937
2.119,-42.1524
2.12,-36.9549
2.121,-31.4832
2.122,-25.1651
2.123,-19.6219
2.124,-14.1621
2.125,-8.27313
2.126,-1.80006
2.127,3.19481
2.128,9.39369
2.129,14.6866
2.13,20.3371
2.131,25.9638
2.132,31.2567
2.133,36.5973
2.134,41.6517
2.135,47.1234
2.136,52.5951
2.137,58.3649
2.138,63.3001
2.139,68.6646
2.14,73.7429
2.141,78.3324
2.142,83.5061
2.143,88.7156
2.144,93.4839
2.145,98.1093
2.146,102.556
2.147,107.241
2.148,111.64
2.149,116.086
2.15,120.604
2.151,124.395
2.152,127.78
2.153,132.716
2.154,136.387
2.155,139.654
2.156,143.051
2.157,146.413
2.158,150.168
2.159,152.993
2.16,156.188
2.161,159.419
2.162,162.208
2.163,164.592
2.164,167.358
2.165,169.599
2.166,171.638
2.167,173.461
2.168,175.416
2.169,177.336
2.17,178.778
2.171,180.411
2.172,181.186
2.173,182.343
2.174,183.415
2.175,184.512
2.176,185.215
2.177,185.323
2.178,185.99
2.179,185.466
2.18,185.728
2.181,185.549
2.182,184.798
2.183,184.166
2.184,183.487
2.185,182.7
2.186,182.033
2.187,180.626
2.188,179.231
2.189,178.027
2.19,176.299
2.191,174.439
2.192,172.114
2.193,169.992
2.194,168.24
2.195,165.582
2.196,163.078
2.197,160.384
2.198,157.189
2.199,154.161
2.2,151.289
2.201,148.368
2.202,144.839
2.203,141.418
2.204,137.782
2.205,134.218
2.206,130.343
2.207,126.386
2.208,122.261
2.209,117.934
2.21,113.678
2.211,109.351
2.212,104.821
2.213,100.076
2.214,95.5343
2.215,91.1474
2.216,85.3539
2.217,80.1921
2.218,75.4356
2.219,70.5361
2.22,65.5055
2.221,60.5226
2.222,55.0032
2.223,49.8772
2.224,44.2863
2.225,39.351
2.226,34.0343
2.227,28.7771
2.228,23.2935
2.229,17.9768
2.23,12.4455
2.231,6.69956
2.232,1.15633
2.233,-4.81606
2.234,-10.4189
2.235,-15.9383
2.236,-21.5054
2.237,-27.0486
2.238,-32.9852
2.239,-38.6953
2.24,-44.0478
2.241,-49.5792
2.242,-54.884
2.243,-60.3557
2.244,-65.577
2.245,-70.6434
2.246,-76.3178
2.247,-81.4319
2.248,-86.5221
2.249,-91.4335
2.25,-96.3926
2.251,-101.495
2.252,-106.347
2.253,-111.246
2.254,-116.479
2.255,-120.771
2.256,-125.098
2.257,-130.141
2.258,-134.11
2.259,-138.39
2.26,-141.919
2.261,-146.234
2.262,-150.752
2.263,-154.567
2.264,-157.964
2.265,-161.636
2.266,-164.878
2.267,-168.324
2.268,-171.173
2.269,-174.224
2.27,-177.491
2.271,-180.578
2.272,-183.439
2.273,-185.919
2.274,-188.231
2.275,-190.222
2.276,-192.034
2.277,-194.097
2.278,-196.123
2.279,-197.613
2.28,-199.187
2.281,-200.355
2.282,-201.142
2.283,-202.322
2.284,-203.276
2.285,-203.788
2.286,-204.515
2.287,-205.207
2.288,-205.958
2.289,-205.994
2.29,-205.839
2.291,-205.541
2.292,-204.873
2.293,-204.337
2.294,-203.502
2.295,-202.394
2.296,-201.106
2.297,-199.974
2.298,-198.615
2.299,-196.779
2.3,-195.396
2.301,-193.799
2.302,-191.653
2.303,-189.865
2.304,-187.814
2.305,-185.466
2.306,-182.867
2.307,-180.399
2.308,-177.205
2.309,-173.938
2.31,-171.423
2.311,-167.882
2.312,-164.27
2.313,-160.73
2.314,-156.736
2.315,-153.542
2.316,-149.488
2.317,-145.805
2.318,-142.038
2.319,-137.424
2.32,-133.598
2.321,-129.163
2.322,-124.455
2.323,-120.306
2.324,-115.347
2.325,-110.936
2.326,-105.953
2.327,-101.113
2.328,-95.9397
2.329,-90.9805
2.33,-85.3419
2.331,-80.359
2.332,-75.3641
2.333,-69.8686
2.334,-64.7068
2.335,-59.8669
2.336,-54.5263
2.337,-48.7804
2.338,-43.428
2.339,-37.9324
2.34,-32.6514
2.341,-26.9532
2.342,-21.7199
2.343,-16.0575
2.344,-9.98974
2.345,-5.00679
2.346,0.548363
2.347,6.28233
2.348,11.8017
2.349,17.2853
2.35,22.6617
2.351,28.348
2.352,33.5574
2.353,38.6834
2.354,43.9406
2.355,48.9712
2.356,54.4429
2.357,60.0696
2.358,64.8141
2.359,69.7136
2.36,75.0184
2.361,79.8941
2.362,84.8651
2.363,88.8825
2.364,93.7224
2.365,98.1808
2.366,102.758
2.367,107.217
2.368,111.21
2.369,115.347
2.37,119.615
2.371,123.572
2.372,127.459
2.373,130.808
2.374,134.707
2.375,138.426
2.376,142.014
2.377,145.173
2.378,148.404
2.379,151.563
2.38,154.126
2.381,156.641
2.382,159.585
2.383,162.125
2.384,164.211
2.385,166.285
2.386,168.407
2.387,169.957
2.388,171.661
2.389,173.461
2.39,174.916
2.391,176.048
2.392,177.443
2.393,178.301
2.394,178.945
2.395,179.756
2.396,180.662
2.397,181.21
2.398,181.448
2.399,181.437
2.4,181.448
2.401,181.067
2.402,180.769
2.403,180.173
2.404,179.124
2.405,178.254
2.406,177.348
2.407,175.941
2.408,174.093
2.409,172.651
2.41,171.101
2.411,169.396
2.412,167.298
2.413,164.783
2.414,162.029
2.415,159.967
2.416,157.619
2.417,154.614
2.418,152.338
2.419,149.357
2.42,146.449
2.421,142.92
2.422,139.356
2.423,136.518
2.424,132.859
2.425,129.199
2.426,125.575
2.427,121.617
2.428,117.123
2.429,112.939
2.43,109.029
2.431,104.344
2.432,99.7782
2.433,95.5343
2.434,90.6229
2.435,85.6877
2.436,81.0623
2.437,76.3774
2.438,71.4183
2.439,66.4592
2.44,61.7027
2.441,57.0417
2.442,51.5938
2.443,46.3963
2.444,41.0318
2.445,35.6555
2.446,30.1838
2.447,25.1293
2.448,19.3238
2.449,14.1501
2.45,9.07183
2.451,3.37362
2.452,-2.40803
2.453,-8.10623
2.454,-13.1488
2.455,-18.6324
2.456,-24.4856
2.457,-29.7546
2.458,-34.9641
2.459,-40.257
2.46,-45.5976
2.461,-51.1885
2.462,-56.4694
2.463,-62.0365
2.464,-67.3533
2.465,-72.7296
2.466,-78.0821
2.467,-82.8147
2.468,-88.1076
2.469,-92.8521
2.47,-98.0854
2.471,-102.544
2.472,-107.133
2.473,-112.212
2.474,-116.479
2.475,-120.926
2.476,-124.621
2.477,-129.414
2.478,-133.753
2.479,-137.27
2.48,-141.49
2.481,-145.578
2.482,-149.739
2.483,-153.375
2.484,-157.07
2.485,-160.658
2.486,-163.984
2.487,-167.489
2.488,-170.517
2.489,-173.259
2.49,-176.06
2.491,-178.838
2.492,-181.115
2.493,-183.284
2.494,-185.454
2.495,-187.278
2.496,-189.388
2.497,-190.747
2.498,-192.976
2.499,-194.728
2.5,-196.052
2.501,-197.375
2.502,-198.424
2.503,-199.819
2.504,-201.058
2.505,-201.046
2.506,-201.058
2.507,-201.738
2.508,-201.845
2.509,-201.488
2.51,-201.285
2.511,-200.26
2.512,-199.664
2.513,-199.151
2.514,-198.782
2.515,-197.411
2.516,-196.278
2.517,-195.122
2.518,-193.703
2.519,-192.225
2.52,-190.961
2.521,-189.066
2.522,-187.433
2.523,-185.096
2.524,-182.962
2.525,-180.316
2.526,-177.836
2.527,-174.689
2.528,-171.852
2.529,-168.264
2.53,-165.105
2.531,-161.982
2.532,-158.322
2.533,-154.936
2.534,-151.598
2.535,-148.129
2.536,-144.637
2.537,-140.619
2.538,-136.709
2.539,-132.835
2.54,-128.615
2.541,-124.037
2.542,-119.138
2.543,-114.787
2.544,-110.042
2.545,-105.131
2.546,-100.422
2.547,-95.5343
2.548,-90.0746
2.549,-85.3181
2.55,-80.204
2.551,-75.3522
2.552,-70.4408
2.553,-65.2194
2.554,-59.9861
2.555,-54.9316
2.556,-50.0441
2.557,-44.3578
2.558,-39.1841
2.559,-34.0819
2.56,-28.3003
2.561,-22.8167
2.562,-17.3926
2.563,-11.313
2.564,-6.03199
2.565,-0.38147
2.566,5.11408
2.567,10.5619
2.568,15.7714
2.569,20.7901
2.57,26.1068
2.571,31.2209
2.572,36.5019
2.573,41.604
2.574,46.587
2.575,51.9157
2.576,56.839
2.577,62.4895
2.578,67.6036
2.579,72.7177
2.58,77.3192
2.581,81.8968
2.582,86.6175
2.583,91.064
2.584,94.7476
2.585,99.4444
2.586,103.712
2.587,107.777
2.588,111.818
2.589,116.217
2.59,120.223
2.591,123.942
2.592,127.649
2.593,131.393
2.594,134.647
2.595,138.497
2.596,141.728
2.597,144.66
2.598,148.165
2.599,150.824
2.6,153.506
2.601,155.89
2.602,158.203
2.603,160.432
2.604,162.518
2.605,164.437
2.606,166.583
2.607,168.145
2.608,169.766
2.609,170.732
2.61,172.019
2.611,173.39
2.612,173.581
2.613,174.522
2.614,175.798
2.615,176.632
2.616,176.728
2.617,176.775
2.618,176.99
2.619,177.276
2.62,176.74
2.621,176.466
2.622,176.156
2.623,175.166
2.624,173.95
2.625,173.271
2.626,172.4
2.627,170.839
2.628,169.48
2.629,167.978
2.63,166.44
2.631,164.735
2.632,162.315
2.633,160.408
2.634,158.072
2.635,155.795
2.636,153.136
2.637,150.168
2.638,147.367
2.639,144.041
2.64,141.239
2.641,138.128
2.642,134.73
2.643,131.202
2.644,127.554
2.645,123.811
2.646,120.294
2.647,116.575
2.648,112.76
2.649,108.647
2.65,104.511
2.651,100.303
2.652,95.6297
2.653,90.754
2.654,86.081
2.655,81.2769
2.656,76.8423
2.657,72.0024
2.658,67.1625
2.659,61.7266
2.66,57.1728
2.661,52.1779
2.662,47.2784
2.663,41.7829
2.664,36.8714
2.665,31.7454
2.666,26.4764
2.667,21.4458
2.668,16.3198
2.669,10.8957
2.67,5.68628
2.671,0.417233
2.672,-5.45979
2.673,-10.5381
2.674,-16.2244
2.675,-21.8391
2.676,-26.7625
2.677,0
2.678,0
2.679,0
2.68,0
2.681,0
